ax,ay,az,gx,gy,gz,magnitude,timestamp
-0.178,-0.701,0.723,-11.841,6.348,2.014,1.023,1773724741952
-0.133,-0.567,0.688,17.578,-0.488,5.188,0.902,1773724741967
-0.149,-0.650,0.773,5.371,2.258,0.732,1.021,1773724742029
-0.143,-0.637,0.766,-0.793,-0.366,-0.427,1.006,1773724742055
-0.144,-0.638,0.757,-0.916,0.000,0.122,1.001,1773724742085
-0.144,-0.638,0.762,1.404,-0.244,-0.244,1.005,1773724742147
-0.138,-0.647,0.767,0.977,-0.671,1.160,1.013,1773724742178
-0.129,-0.630,0.760,43.091,-1.648,17.090,0.995,1773724742208
-0.125,-0.713,0.706,21.912,3.174,4.761,1.011,1773724742268
-0.114,-0.653,0.733,0.549,-1.160,-1.343,0.988,1773724742297
-0.058,-0.621,0.749,-22.339,-9.583,-11.475,0.975,1773724742327
-0.104,-0.718,0.700,36.011,1.953,-7.935,1.008,1773724742386
0.274,-0.609,0.813,-47.180,-50.842,-18.188,1.052,1773724742418
-0.417,-0.276,0.872,406.433,-196.228,5.432,1.006,1773724742447
-0.569,-1.001,0.141,274.170,-120.117,-72.144,1.160,1773724742511
-0.505,-0.865,0.174,27.832,-45.654,-62.378,1.017,1773724742537
-0.605,-0.824,0.305,-96.069,-59.814,-129.333,1.067,1773724742565
-0.474,-0.959,0.203,60.486,-74.768,-87.769,1.089,1773724742632
-0.488,-0.833,0.112,-16.541,-33.997,-64.209,0.972,1773724742656
-0.598,-0.739,0.308,14.832,-74.463,-80.017,0.999,1773724742686
-0.528,-0.708,0.189,145.447,-95.154,-57.312,0.903,1773724742748
-0.842,-0.785,0.016,165.039,-97.717,-42.969,1.151,1773724742779
-0.718,-0.612,-0.081,194.946,-112.549,-131.592,0.946,1773724742805
-0.901,-0.682,-0.271,211.426,-97.107,-128.235,1.162,1773724742868
-1.014,-0.350,0.115,199.707,-62.317,-155.823,1.079,1773724742897
-0.996,-0.083,0.284,229.370,72.266,-215.637,1.039,1773724742933
-1.488,-0.043,0.034,269.409,230.896,-196.594,1.489,1773724742990
-1.599,-0.053,-0.102,284.912,382.019,-99.365,1.604,1773724743078
-1.587,-0.005,-0.535,146.545,494.385,103.821,1.675,1773724743104
-1.426,0.103,-0.626,193.848,204.468,179.077,1.560,1773724743140
-1.144,0.123,-0.566,67.749,-14.465,265.503,1.282,1773724743199
-1.342,0.293,-0.456,-14.038,-250.610,261.841,1.447,1773724743227
-0.945,0.220,-0.285,-42.664,-438.599,216.309,1.011,1773724743259
-2.519,0.409,0.152,70.129,-729.858,103.455,2.557,1773724743349
-2.207,0.297,0.330,-47.180,-591.187,-170.410,2.251,1773724743410
-1.811,0.162,0.413,-42.725,-483.643,-302.307,1.865,1773724743435
-1.214,-0.013,0.481,-2.075,-282.104,-343.018,1.306,1773724743467
-1.146,-0.101,0.404,14.160,-50.049,-305.969,1.219,1773724743529
-1.180,-0.175,0.297,76.355,116.089,-301.880,1.230,1773724743558
-1.231,-0.194,0.149,139.709,268.860,-188.721,1.255,1773724743586
-1.593,-0.088,-0.003,201.355,331.543,-71.777,1.596,1773724743616
-1.500,-0.071,-0.112,189.209,380.737,54.871,1.506,1773724743682
-1.584,0.049,-0.199,243.591,290.833,150.391,1.598,1773724743705
-1.238,0.088,-0.256,271.606,156.860,213.745,1.267,1773724743735
-1.220,0.199,-0.248,148.743,84.351,247.437,1.261,1773724743801
-1.080,0.236,-0.174,179.932,-66.772,126.831,1.120,1773724743830
-0.776,0.213,-0.134,119.507,-149.292,51.758,0.816,1773724743856
-1.053,0.187,0.025,98.694,-171.082,-30.151,1.070,1773724743917
-0.755,0.103,0.003,31.250,-91.370,-99.915,0.762,1773724743947
-1.061,0.085,0.047,114.197,-89.905,-144.226,1.066,1773724743978
-0.885,-0.014,-0.002,41.443,34.119,-159.119,0.885,1773724744039
-1.124,0.022,-0.077,14.893,120.911,-81.360,1.127,1773724744071
-1.058,-0.033,-0.139,130.005,52.429,-96.252,1.068,1773724744098
-1.157,-0.023,-0.165,100.647,66.101,-27.771,1.169,1773724744159
-0.939,-0.031,-0.227,45.776,81.116,6.714,0.967,1773724744185
-1.050,0.059,-0.170,98.083,-7.080,49.500,1.065,1773724744220
-1.374,0.142,-0.105,132.629,-51.147,60.730,1.386,1773724744280
-1.257,0.093,-0.049,54.749,23.560,92.712,1.261,1773724744305
-1.144,0.124,-0.163,34.485,159.607,174.805,1.162,1773724744336
-1.743,0.238,-0.151,49.866,181.396,193.542,1.766,1773724744427
-0.577,0.217,-0.580,-7.080,68.237,140.686,0.846,1773724744488
-0.879,0.219,-0.346,-62.561,-160.889,67.261,0.970,1773724744514
-0.778,0.148,-0.232,-116.882,-312.988,-40.894,0.825,1773724744546
-1.406,0.190,0.014,-110.046,-489.319,-69.519,1.419,1773724744613
-2.119,0.238,0.210,-129.089,-472.534,-172.485,2.143,1773724744699
-1.588,0.060,0.321,-102.478,-316.284,-212.402,1.622,1773724744726
-1.134,-0.064,0.342,-25.146,-192.871,-228.394,1.186,1773724744759
-0.885,-0.147,0.299,-41.138,0.854,-150.635,0.946,1773724744814
-1.022,-0.125,0.193,17.212,139.587,-108.154,1.048,1773724744847
-1.100,-0.082,0.040,60.791,293.274,-9.338,1.104,1773724744876
-1.340,0.016,-0.077,106.506,331.848,42.358,1.342,1773724744941
-1.410,0.071,-0.169,128.662,344.665,89.050,1.422,1773724744968
-1.437,0.139,-0.249,149.475,289.673,118.591,1.465,1773724744998
-1.238,0.167,-0.326,93.079,202.087,117.798,1.291,1773724745056
-0.977,0.193,-0.373,75.867,59.570,91.370,1.063,1773724745084
-0.995,0.225,-0.289,37.415,-81.665,26.062,1.061,1773724745117
-1.076,0.198,-0.153,12.634,-176.453,-42.786,1.105,1773724745183
-1.171,0.155,-0.047,-5.920,-222.351,-96.985,1.182,1773724745206
-1.174,0.096,0.020,-39.124,-209.351,-120.666,1.178,1773724745242
-1.118,0.040,0.064,-53.589,-167.175,-119.812,1.120,1773724745298
-0.983,-0.013,0.082,-35.217,-103.821,-86.792,0.987,1773724745326
-1.004,-0.016,0.087,-15.259,-29.541,-44.983,1.008,1773724745355
-1.036,-0.018,0.055,-20.508,57.617,-6.958,1.037,1773724745418
-0.976,-0.011,-0.030,22.888,96.924,8.545,0.977,1773724745445
-1.089,0.032,-0.079,43.518,125.000,43.030,1.092,1773724745478
-0.996,0.051,-0.160,76.782,123.169,51.270,1.010,1773724745538
-1.087,0.092,-0.175,89.294,101.868,73.120,1.105,1773724745565
-1.169,0.129,-0.186,80.872,43.640,50.049,1.191,1773724745599
-1.028,0.106,-0.207,34.302,32.166,49.255,1.054,1773724745686
-0.847,0.109,-0.221,63.843,-13.184,28.564,0.882,1773724745688
-1.139,0.156,-0.105,73.547,-57.495,6.165,1.155,1773724745718
-1.050,0.093,-0.081,44.678,-43.091,-27.649,1.057,1773724745782
-0.890,0.034,-0.081,32.288,-32.288,-23.193,0.895,1773724745805
-0.974,0.040,-0.053,28.748,-20.264,-11.108,0.977,1773724745838
-0.924,0.015,-0.048,31.860,-14.404,-11.230,0.925,1773724745898
-1.005,0.011,-0.018,46.814,-15.991,-2.991,1.005,1773724745924
-1.007,0.002,-0.005,57.129,-15.991,-3.967,1.007,1773724745954
-0.953,-0.026,0.024,80.078,-23.010,-9.827,0.954,1773724746021
-1.007,0.018,0.026,72.632,7.568,24.353,1.007,1773724746045
-0.867,-0.004,0.006,97.778,2.625,8.118,0.867,1773724746075
-1.128,0.050,0.037,85.327,33.997,22.766,1.130,1773724746138
-1.132,0.016,-0.016,67.383,79.407,8.362,1.132,1773724746168
-1.129,0.019,-0.066,101.013,78.186,24.170,1.131,1773724746198
-1.502,0.110,-0.064,115.479,138.550,86.731,1.508,1773724746289
-1.977,0.266,-0.245,73.853,258.789,247.620,2.010,1773724746348
-1.899,0.294,-0.363,26.855,200.928,270.081,1.955,1773724746375
-0.848,0.224,-0.612,-68.298,69.458,255.188,1.070,1773724746407
-0.377,0.227,-0.569,-20.325,-291.809,189.880,0.719,1773724746434
-1.348,0.354,-0.150,-52.307,-547.607,109.802,1.402,1773724746503
-1.888,0.338,0.124,-72.449,-655.640,-59.326,1.922,1773724746586
-2.612,0.231,0.384,-107.910,-585.754,-345.215,2.650,1773724746618
-2.380,0.132,0.446,-45.776,-492.187,-397.339,2.425,1773724746646
-1.792,-0.040,0.465,-3.540,-284.241,-435.486,1.851,1773724746708
-1.241,-0.240,0.430,56.335,-60.974,-369.141,1.335,1773724746735
-1.180,-0.302,0.302,124.512,143.738,-244.080,1.255,1773724746767
-1.234,-0.259,0.132,189.392,311.279,-62.195,1.268,1773724746832
-1.637,-0.062,-0.039,225.098,388.733,121.399,1.639,1773724746857
-1.687,0.056,-0.113,298.706,318.542,238.525,1.691,1773724746887
-1.613,0.180,-0.163,280.151,237.244,328.491,1.632,1773724746952
-1.464,0.282,-0.169,275.085,97.107,296.448,1.501,1773724746978
-1.290,0.322,-0.100,221.008,-20.386,240.723,1.334,1773724747005
-1.049,0.314,-0.033,174.927,-64.575,100.220,1.096,1773724747036
-0.911,0.257,0.028,195.251,-100.220,-5.127,0.947,1773724747101
-0.893,0.154,0.093,158.325,-46.326,-98.022,0.911,1773724747126
-0.990,0.079,0.082,156.921,57.678,-113.647,0.996,1773724747189
-1.166,0.043,0.014,148.254,199.280,-92.102,1.167,1773724747217
-1.354,0.048,-0.096,143.555,312.744,-20.142,1.358,1773724747248
-1.896,0.154,-0.159,220.520,328.369,45.837,1.909,1773724747337
-2.271,0.297,-0.314,181.519,240.051,205.383,2.312,1773724747399
-2.561,0.381,-0.311,85.449,115.479,268.250,2.608,1773724747424
-1.339,0.307,-0.542,34.302,-0.610,251.282,1.477,1773724747455
-1.618,0.402,-0.359,3.845,-274.902,278.137,1.706,1773724747486
-1.658,0.419,-0.165,-63.904,-532.349,221.191,1.718,1773724747552
-2.417,0.440,0.138,-15.442,-729.370,128.418,2.461,1773724747575
-3.061,0.414,0.342,-3.723,-833.191,-90.698,3.108,1773724747605
-3.715,0.374,0.465,40.527,-796.143,-285.889,3.763,1773724747672
-3.619,0.301,0.460,43.152,-706.360,-460.266,3.661,1773724747697
-2.978,0.119,0.489,79.651,-516.541,-583.191,3.020,1773724747725
-2.309,-0.058,0.465,56.458,-188.049,-582.031,2.356,1773724747791
-1.715,-0.278,0.363,179.321,57.678,-501.892,1.775,1773724747816
-1.422,-0.366,0.173,249.512,269.287,-224.915,1.479,1773724747851
-1.547,-0.242,-0.009,305.237,349.426,36.926,1.566,1773724747910
-1.743,-0.036,-0.112,403.076,305.847,327.820,1.747,1773724747936
-1.949,0.196,-0.137,361.145,188.599,444.824,1.964,1773724747968
-1.779,0.315,-0.096,335.571,15.564,441.589,1.809,1773724748031
-1.411,0.347,-0.017,263.611,-74.585,281.555,1.453,1773724748055
-0.952,0.285,0.048,187.988,-75.500,181.152,0.995,1773724748086
-0.804,0.234,0.095,209.473,-65.125,39.978,0.843,1773724748147
-0.887,0.139,0.164,238.892,0.977,-24.719,0.913,1773724748176
-1.070,0.062,0.136,146.362,252.502,-28.442,1.080,1773724748205
-1.972,0.194,-0.072,154.480,480.591,29.907,1.983,1773724748298
-3.462,0.441,-0.200,349.060,531.738,243.713,3.495,1773724748361
-3.205,0.463,-0.276,315.369,385.132,224.731,3.250,1773724748387
-2.497,0.490,-0.408,252.258,196.472,272.644,2.577,1773724748418
-2.198,0.550,-0.455,118.408,-31.616,182.922,2.311,1773724748476
-1.875,0.442,-0.372,-9.460,-392.517,97.595,1.962,1773724748505
-2.346,0.380,-0.045,-118.530,-824.768,92.896,2.377,1773724748538
-4.000,0.443,0.452,-1.648,-1100.342,-41.748,4.050,1773724748599
-3.986,0.382,0.627,90.088,-1112.061,-293.640,4.053,1773724748626
-4.000,0.323,0.580,51.758,-949.707,-513.428,4.055,1773724748655
-4.000,0.219,0.522,46.021,-752.441,-643.799,4.040,1773724748718
-3.044,-0.011,0.558,142.578,-499.390,-676.575,3.095,1773724748745
-2.163,-0.223,0.498,167.480,-104.309,-587.158,2.231,1773724748775
-1.090,-0.534,0.396,299.744,165.039,-417.847,1.277,1773724748841
-1.363,-0.357,0.089,393.738,421.997,21.179,1.411,1773724748867
-2.197,0.025,-0.096,410.156,420.288,329.834,2.199,1773724748896
-2.230,0.209,-0.143,437.500,229.065,460.266,2.244,1773724748960
-2.064,0.334,-0.093,350.647,29.907,498.535,2.093,1773724748986
-1.538,0.360,-0.017,330.627,-163.147,311.218,1.579,1773724749019
-1.404,0.325,0.139,304.016,-219.666,133.362,1.448,1773724749079
-1.008,0.181,0.198,235.413,-96.252,-25.330,1.043,1773724749107
-0.962,-0.012,0.209,246.338,66.956,-60.181,0.984,1773724749136
-1.369,0.026,0.075,315.613,403.686,148.010,1.371,1773724749201
-3.021,0.310,-0.077,302.734,606.079,321.960,3.038,1773724749291
-3.915,0.577,-0.183,435.730,478.516,483.582,3.961,1773724749318
-3.000,0.620,-0.247,318.665,268.860,375.305,3.073,1773724749346
-2.245,0.621,-0.328,180.969,77.026,210.815,2.353,1773724749408
-1.771,0.601,-0.438,33.386,-106.628,-10.010,1.920,1773724749436
-1.606,0.355,-0.392,-80.994,-493.957,-219.543,1.691,1773724749468
-2.530,0.256,0.037,-245.483,-839.966,-185.303,2.543,1773724749528
-4.000,0.381,0.490,-140.747,-1057.495,-160.950,4.048,1773724749555
-3.988,0.328,0.591,-31.921,-1037.903,-350.037,4.045,1773724749584
-4.000,0.282,0.542,-4.517,-947.082,-462.219,4.046,1773724749652
-3.873,0.180,0.528,-7.019,-711.365,-517.151,3.913,1773724749675
-2.672,0.022,0.538,82.397,-453.247,-550.781,2.725,1773724749708
-1.115,-0.346,0.576,169.983,-148.743,-493.713,1.302,1773724749770
-1.288,-0.318,0.366,208.923,223.816,-270.874,1.376,1773724749800
-1.368,-0.217,0.067,286.560,397.095,-50.964,1.386,1773724749827
-2.141,0.081,-0.134,399.231,421.692,284.546,2.146,1773724749888
-1.940,0.218,-0.182,325.989,344.543,363.525,1.961,1773724749917
-2.063,0.361,-0.103,298.767,140.015,455.383,2.097,1773724749945
-1.537,0.367,-0.044,284.363,-11.475,274.536,1.581,1773724750008
-1.173,0.355,0.015,185.547,5.310,170.349,1.226,1773724750037
-1.068,0.317,0.044,160.828,47.852,-0.549,1.114,1773724750069
-1.136,0.182,0.037,208.862,71.045,-137.329,1.151,1773724750129
-1.361,0.079,0.068,224.487,177.673,-82.275,1.365,1773724750155
-1.770,0.129,-0.051,209.656,329.956,-43.884,1.776,1773724750188
-1.561,0.062,-0.159,357.178,310.425,39.429,1.570,1773724750253
-1.893,0.193,-0.197,295.776,342.102,177.856,1.913,1773724750306
-1.809,0.281,-0.250,331.909,225.586,196.045,1.848,1773724750308
-1.645,0.315,-0.207,271.667,151.611,172.913,1.688,1773724750368
-1.993,0.386,-0.126,194.031,110.229,160.217,2.034,1773724750396
-1.519,0.317,-0.244,146.057,118.896,-12.878,1.571,1773724750425
-2.132,0.271,-0.177,108.704,84.717,-68.970,2.156,1773724750489
-2.024,0.197,-0.255,25.757,91.675,-106.323,2.050,1773724750516
-2.535,0.158,-0.227,-40.833,59.814,-21.606,2.550,1773724750545
-1.919,0.069,-0.382,-179.504,-24.902,185.364,1.957,1773724750608
-1.604,0.149,-0.393,-227.600,-183.105,379.089,1.658,1773724750638
-2.909,0.392,0.038,-114.075,-629.761,588.867,2.935,1773724750668
-4.000,0.495,0.462,20.325,-892.151,484.863,4.057,1773724750728
-3.994,0.483,0.578,128.784,-1024.231,274.597,4.064,1773724750756
-4.000,0.436,0.578,292.847,-1037.964,-59.265,4.065,1773724750786
-3.901,0.325,0.569,178.894,-814.880,-355.286,3.956,1773724750853
-2.719,0.204,0.548,140.808,-457.214,-469.299,2.781,1773724750875
-2.197,0.035,0.440,218.750,-149.841,-551.758,2.241,1773724750906
-1.482,-0.164,0.299,153.137,188.843,-444.214,1.520,1773724750970
-1.626,-0.115,0.100,141.052,352.783,-223.511,1.633,1773724750995
-1.675,-0.035,-0.058,122.070,376.709,-71.167,1.676,1773724751025
-1.188,-0.043,-0.140,201.782,274.536,71.899,1.196,1773724751089
-1.420,0.156,-0.208,128.784,176.392,145.264,1.444,1773724751120
-1.209,0.185,-0.178,132.507,15.991,92.957,1.236,1773724751147
-0.998,0.236,-0.163,82.397,-87.585,-22.949,1.038,1773724751207
-1.261,0.211,-0.039,99.548,-191.528,-136.414,1.280,1773724751238
-1.453,0.108,0.028,32.776,-127.441,-258.179,1.458,1773724751266
-1.471,0.003,0.023,43.945,-69.153,-328.857,1.471,1773724751328
-1.545,-0.088,0.006,58.838,-10.620,-323.364,1.547,1773724751422
-1.369,-0.179,-0.185,111.267,152.344,-101.746,1.393,1773724751444
-1.208,-0.136,-0.268,138.550,140.198,73.181,1.245,1773724751475
-1.236,0.011,-0.289,163.635,79.895,195.740,1.270,1773724751538
-1.453,0.166,-0.230,166.809,-2.258,244.995,1.481,1773724751570
-1.207,0.214,-0.216,123.840,-48.828,214.050,1.244,1773724751596
-1.102,0.256,-0.170,83.191,-98.633,181.213,1.144,1773724751664
-1.083,0.266,-0.104,54.626,-118.408,84.778,1.120,1773724751687
-1.005,0.217,-0.053,24.963,-104.248,17.700,1.030,1773724751722
-1.012,0.181,-0.044,-10.010,-47.974,-34.485,1.029,1773724751776
-0.966,0.101,-0.074,-26.367,-12.451,-83.862,0.974,1773724751810
-0.950,0.040,-0.105,-28.687,8.423,-94.116,0.956,1773724751834
-0.912,-0.008,-0.141,-45.349,24.475,-81.604,0.923,1773724751899
-0.964,-0.035,-0.137,-37.476,5.981,-52.185,0.974,1773724751926
-1.049,-0.034,-0.117,-26.001,-0.366,-20.325,1.056,1773724751957
-0.907,-0.031,-0.141,-40.039,26.978,49.011,0.919,1773724752019
-1.037,0.058,-0.150,-43.274,40.222,77.759,1.050,1773724752044
-1.115,0.078,-0.178,-92.346,97.717,86.243,1.132,1773724752077
-0.775,0.076,-0.287,-56.824,69.031,94.727,0.830,1773724752139
-1.082,0.148,-0.236,-55.054,49.194,68.359,1.118,1773724752167
-1.040,0.119,-0.261,-108.887,41.382,8.972,1.079,1773724752196
-1.041,0.111,-0.263,-140.198,11.230,37.720,1.079,1773724752260
-1.178,0.120,-0.234,-167.603,-7.812,13.611,1.208,1773724752286
-1.060,0.046,-0.190,-202.820,-28.137,42.969,1.078,1773724752316
-1.109,0.125,-0.133,-227.051,-69.153,96.252,1.124,1773724752378
-1.070,0.157,-0.095,-203.064,-132.385,85.632,1.086,1773724752405
-1.076,0.192,-0.045,-213.867,-179.871,115.845,1.094,1773724752436
-1.119,0.243,0.003,-184.998,-230.469,86.548,1.145,1773724752496
-1.233,0.278,0.069,-128.967,-302.734,6.348,1.266,1773724752526
-1.358,0.253,0.149,-79.529,-347.229,-95.154,1.389,1773724752560
-1.729,0.227,0.232,-32.104,-340.088,-210.449,1.759,1773724752645
-2.102,-0.035,0.305,78.125,-222.412,-328.735,2.124,1773724752710
-1.526,-0.267,0.308,158.081,-94.788,-136.292,1.580,1773724752736
-1.896,-0.166,0.192,212.280,132.751,429.321,1.913,1773724752767
-3.567,0.263,0.096,307.739,164.246,866.028,3.578,1773724752826
-4.000,0.584,0.161,340.576,129.883,1135.681,4.046,1773724752857
-4.000,0.759,0.158,-6.165,374.939,1187.378,4.074,1773724752886
-4.000,0.746,0.093,-46.265,537.231,1013.611,4.070,1773724752950
-4.000,0.754,-0.031,-86.914,677.185,708.374,4.070,1773724752977
-3.146,0.760,-0.237,-154.297,727.905,362.488,3.245,1773724753006
-2.318,0.622,-0.421,-223.450,669.678,-38.330,2.436,1773724753069
-1.893,0.376,-0.554,-300.415,483.154,-330.627,2.008,1773724753097
-1.659,0.153,-0.569,-417.725,216.919,-487.976,1.761,1773724753126
-1.930,-0.033,-0.323,-406.067,-115.295,-539.856,1.957,1773724753190
-2.088,-0.109,-0.096,-354.431,-329.468,-449.280,2.093,1773724753215
-1.953,-0.132,0.045,-246.460,-436.584,-338.684,1.958,1773724753245
-1.372,-0.230,0.137,-195.557,-405.457,-201.843,1.398,1773724753308
-0.831,-0.295,0.244,-102.234,-288.818,-30.884,0.915,1773724753338
-0.657,-0.217,0.271,-1.709,-122.864,109.619,0.743,1773724753365
-0.703,-0.100,0.240,76.172,49.805,199.951,0.749,1773724753394
-1.307,0.113,0.135,133.972,217.407,253.357,1.318,1773724753460
-1.650,0.220,0.020,183.533,343.018,243.164,1.664,1773724753547
-2.200,0.357,-0.185,269.287,423.584,191.040,2.237,1773724753579
-2.267,0.395,-0.237,252.563,362.488,143.677,2.314,1773724753606
-2.120,0.401,-0.317,194.641,263.000,96.985,2.181,1773724753670
-2.053,0.363,-0.334,140.930,125.000,52.185,2.112,1773724753696
-1.862,0.345,-0.341,87.646,-55.237,81.238,1.925,1773724753725
-2.334,0.376,-0.167,2.441,-160.767,117.310,2.370,1773724753789
-2.443,0.406,-0.151,-84.778,-240.906,161.316,2.482,1773724753816
-2.050,0.453,-0.199,-156.189,-434.021,175.415,2.109,1773724753846
-2.643,0.464,0.086,-130.066,-736.755,107.605,2.685,1773724753907
-3.807,0.420,0.405,-88.501,-897.644,-44.189,3.851,1773724753940
-4.000,0.390,0.540,-28.137,-926.941,-219.849,4.055,1773724753965
-4.000,0.323,0.533,-6.409,-843.811,-444.763,4.048,1773724754026
-3.957,0.244,0.515,-24.658,-724.365,-550.903,3.997,1773724754058
-3.017,0.127,0.531,64.636,-502.930,-641.052,3.066,1773724754085
-1.751,-0.136,0.508,102.844,-84.534,-614.990,1.828,1773724754145
-1.555,-0.194,0.372,137.146,149.719,-496.155,1.611,1773724754178
-1.737,-0.130,0.105,96.191,423.889,-298.706,1.745,1773724754207
-1.777,-0.069,-0.046,98.389,473.816,-162.537,1.779,1773724754266
-1.597,-0.071,-0.152,81.970,480.347,-68.176,1.606,1773724754300
-1.674,0.054,-0.261,5.676,395.996,58.228,1.695,1773724754325
-1.236,0.022,-0.332,9.766,195.862,83.557,1.280,1773724754390
-0.747,0.049,-0.399,-50.293,-17.456,125.671,0.848,1773724754417
-1.264,0.155,-0.154,-75.745,-213.013,124.390,1.283,1773724754446
-1.476,0.205,-0.008,-72.205,-337.891,74.951,1.490,1773724754509
-1.617,0.191,0.122,-76.782,-368.713,2.380,1.633,1773724754599
-1.286,0.113,0.249,-82.458,-243.408,-82.642,1.315,1773724754629
-1.064,0.058,0.252,-48.889,-153.442,-117.676,1.095,1773724754656
-0.817,-0.052,0.230,-36.377,-19.104,-137.817,0.850,1773724754718
-0.868,-0.069,0.164,-15.320,123.779,-113.647,0.886,1773724754748
-1.122,-0.040,0.066,18.677,234.924,-100.830,1.124,1773724754775
-1.219,-0.046,-0.073,76.416,278.442,-86.182,1.222,1773724754837
-1.270,-0.041,-0.138,82.214,304.504,-25.513,1.278,1773724754878
-1.344,0.016,-0.240,92.163,234.314,29.846,1.365,1773724754895
-1.104,0.015,-0.308,79.285,123.718,57.495,1.146,1773724754957
-1.042,0.067,-0.283,60.242,1.099,94.971,1.081,1773724754987
-1.013,0.122,-0.202,40.344,-78.552,97.412,1.040,1773724755015
-1.146,0.157,-0.080,16.724,-174.988,59.326,1.160,1773724755078
-1.054,0.125,-0.009,-10.803,-189.941,17.273,1.062,1773724755105
-1.024,0.103,0.051,-20.874,-179.993,-15.320,1.030,1773724755138
-1.042,0.085,0.095,-38.574,-128.296,-34.485,1.050,1773724755199
-0.997,0.051,0.104,-23.926,-72.754,-62.256,1.004,1773724755228
-0.943,-0.001,0.084,-24.109,-4.761,-71.777,0.947,1773724755255
-0.969,-0.026,0.040,-15.015,51.758,-65.674,0.970,1773724755317
-0.975,-0.046,-0.008,-0.610,91.248,-48.889,0.976,1773724755346
-1.065,-0.029,-0.057,13.489,118.530,-23.743,1.067,1773724755376
-1.074,-0.015,-0.111,23.865,124.207,3.052,1.080,1773724755439
-1.066,0.005,-0.150,36.438,100.037,25.757,1.076,1773724755465
-1.036,0.034,-0.175,28.503,63.477,48.401,1.052,1773724755494
-1.010,0.081,-0.158,19.287,-0.305,51.758,1.025,1773724755564
-0.985,0.100,-0.128,20.203,-41.077,39.429,0.999,1773724755584
-0.989,0.103,-0.057,6.409,-78.552,14.160,0.996,1773724755615
-1.021,0.092,-0.007,-1.709,-87.952,-8.118,1.025,1773724755678
-0.996,0.060,0.022,-4.822,-79.529,-26.184,0.998,1773724755706
-0.996,0.034,0.034,-12.878,-44.983,-33.936,0.997,1773724755741
-0.984,0.009,0.028,-10.925,-24.536,-34.973,0.984,1773724755799
-0.986,-0.015,0.010,-3.113,5.798,-31.006,0.986,1773724755827
-0.995,-0.027,-0.015,5.249,24.048,-15.564,0.995,1773724755858
-1.010,-0.022,-0.044,21.606,28.992,-2.319,1.012,1773724755915
-0.910,-0.021,-0.078,41.687,19.897,15.381,0.913,1773724755946
-1.037,0.040,-0.080,43.701,21.912,26.428,1.041,1773724755976
-0.991,0.048,-0.102,37.964,24.963,33.630,0.998,1773724756041
-0.992,0.062,-0.111,23.865,26.306,38.025,1.000,1773724756065
-0.940,0.066,-0.115,27.222,15.259,31.555,0.950,1773724756096
-1.035,0.100,-0.107,8.911,11.108,17.578,1.045,1773724756158
-0.994,0.078,-0.104,8.057,-6.592,-4.578,1.002,1773724756185
-1.004,0.053,-0.090,5.554,-18.616,-18.555,1.010,1773724756216
-0.986,0.012,-0.074,1.160,-29.846,-30.273,0.989,1773724756281
-0.999,-0.002,-0.054,-4.150,-30.945,-28.625,1.001,1773724756307
-1.040,0.001,-0.027,-2.747,-27.954,-20.813,1.040,1773724756335
-0.984,-0.023,-0.023,1.221,-18.738,-12.634,0.985,1773724756404
-1.003,-0.009,-0.017,-0.732,-5.981,1.404,1.003,1773724756426
-0.981,0.001,-0.027,3.113,12.329,12.512,0.982,1773724756454
-0.975,0.025,-0.049,-0.977,28.503,21.851,0.977,1773724756517
-0.995,0.048,-0.072,0.183,35.278,21.057,0.999,1773724756547
-0.975,0.053,-0.097,3.540,30.701,15.930,0.981,1773724756575
-1.006,0.064,-0.106,3.845,17.090,4.700,1.013,1773724756636
-0.980,0.051,-0.111,0.854,0.916,-5.127,0.987,1773724756667
-0.995,0.039,-0.090,1.953,-14.404,-10.925,1.000,1773724756695
-1.014,0.029,-0.062,-0.061,-22.522,-15.259,1.016,1773724756759
-1.006,0.012,-0.041,-2.686,-23.132,-13.672,1.007,1773724756788
-0.987,0.006,-0.032,-3.113,-20.081,-11.841,0.987,1773724756816
-0.977,-0.000,-0.023,-1.221,-13.672,-6.287,0.977,1773724756877
-1.011,0.012,-0.015,-0.732,-3.113,0.305,1.011,1773724756904
-0.982,0.010,-0.025,-1.404,9.521,5.005,0.983,1773724756934
-0.985,0.026,-0.040,-1.221,17.822,9.460,0.986,1773724756997
-1.009,0.039,-0.057,-5.676,26.855,10.986,1.012,1773724757027
-0.985,0.036,-0.091,-1.831,22.888,4.944,0.990,1773724757055
-0.969,0.027,-0.099,-0.732,9.888,3.906,0.974,1773724757116
-0.990,0.038,-0.095,-3.601,1.526,1.587,0.996,1773724757147
-0.981,0.032,-0.076,4.700,-18.372,-6.714,0.984,1773724757175
-1.017,0.033,-0.044,-1.099,-19.043,-6.470,1.019,1773724757240
-1.006,0.023,-0.034,-1.160,-18.921,-8.545,1.006,1773724757266
-0.984,0.011,-0.024,0.122,-16.418,-4.517,0.984,1773724757295
-1.001,0.020,-0.015,-1.892,-7.202,1.282,1.001,1773724757359
-0.979,0.022,-0.020,-3.601,3.601,4.028,0.980,1773724757386
-0.990,0.035,-0.027,-4.700,10.803,4.333,0.991,1773724757415
-0.998,0.035,-0.042,-4.333,14.404,0.366,0.999,1773724757479
-1.003,0.026,-0.058,-4.517,14.954,-0.610,1.005,1773724757505
-0.994,0.020,-0.070,-2.747,9.460,2.380,0.997,1773724757535
-1.000,0.027,-0.069,2.014,-1.282,-0.122,1.003,1773724757602
-0.992,0.026,-0.055,5.432,-9.216,1.160,0.994,1773724757626
-0.979,0.030,-0.037,5.127,-8.667,2.686,0.980,1773724757656
-0.997,0.043,-0.024,2.808,-2.747,3.601,0.998,1773724757718
-0.992,0.039,-0.033,-2.625,7.507,-0.610,0.994,1773724757747
-0.972,0.021,-0.066,-6.958,14.221,-1.099,0.975,1773724757777
-0.985,0.018,-0.079,-7.385,9.705,-1.831,0.988,1773724757837
-0.991,0.014,-0.083,-3.540,0.427,-3.418,0.994,1773724757865
-1.012,0.020,-0.064,0.000,-13.184,-3.052,1.014,1773724757895
-0.992,0.013,-0.046,2.991,-19.348,-2.747,0.994,1773724757959
-0.974,0.016,-0.029,2.563,-18.982,-1.160,0.975,1773724757985
-0.997,0.026,-0.010,1.282,-11.536,-2.563,0.997,1773724758015
-0.997,0.022,-0.008,-0.488,0.549,1.160,0.997,1773724758080
-1.017,0.026,-0.019,-4.639,14.343,1.221,1.017,1773724758106
-0.985,0.011,-0.051,-3.357,19.409,2.625,0.986,1773724758138
-0.993,0.023,-0.067,-3.540,20.203,8.850,0.995,1773724758199
-0.981,0.032,-0.082,-0.183,13.550,6.836,0.985,1773724758225
-0.993,0.043,-0.083,-0.977,5.371,5.066,0.997,1773724758284
-0.987,0.046,-0.080,0.671,-5.798,-2.258,0.991,1773724758315
-0.995,0.036,-0.057,1.282,-13.123,-5.920,0.998,1773724758345
-0.993,0.028,-0.044,4.883,-18.738,-9.949,0.995,1773724758375
-0.979,0.015,-0.028,4.089,-16.968,-6.653,0.979,1773724758437
-0.997,0.019,-0.015,5.493,-13.489,-4.578,0.997,1773724758464
-1.009,0.019,-0.009,3.296,-0.488,1.343,1.009,1773724758499
-0.989,0.029,-0.025,0.916,10.193,5.005,0.990,1773724758560
-0.964,0.028,-0.046,1.221,16.602,5.554,0.965,1773724758586
-0.989,0.041,-0.061,-3.052,22.217,6.775,0.992,1773724758619
-0.969,0.045,-0.081,1.770,14.771,1.953,0.974,1773724758646
-0.981,0.045,-0.087,0.732,6.165,-2.197,0.986,1773724758709
-0.992,0.044,-0.086,-3.052,0.122,-6.653,0.997,1773724758735
-0.988,0.042,-0.082,-3.662,-6.836,-8.972,0.992,1773724758766
-1.000,0.036,-0.063,-6.531,-9.583,-11.230,1.002,1773724758826
-1.012,0.028,-0.054,-8.118,-9.644,-13.611,1.013,1773724758857
-1.007,0.010,-0.051,-14.221,-2.747,-12.939,1.009,1773724758886
-0.996,0.000,-0.062,-17.517,4.883,-9.155,0.998,1773724758949
-0.981,-0.003,-0.078,-19.836,9.216,-13.367,0.984,1773724758977
-0.917,-0.029,-0.090,-21.973,18.066,-20.203,0.922,1773724759006
-1.002,-0.011,-0.103,-42.419,47.546,-18.738,1.007,1773724759070
-1.057,-0.010,-0.128,-50.232,61.584,-20.630,1.065,1773724759097
-1.170,0.002,-0.148,-54.932,64.758,-31.128,1.179,1773724759132
-1.084,-0.040,-0.177,-75.989,63.110,-9.277,1.099,1773724759188
-0.955,-0.043,-0.209,-91.553,29.175,39.185,0.979,1773724759216
-1.002,0.044,-0.162,-89.294,-25.208,80.505,1.016,1773724759245
-1.104,0.108,-0.081,-90.576,-72.571,95.886,1.112,1773724759310
-1.086,0.138,-0.034,-100.586,-82.642,99.915,1.095,1773724759367
-1.084,0.172,-0.001,-99.670,-98.267,82.275,1.098,1773724759369
-1.054,0.172,0.029,-96.313,-80.811,44.495,1.069,1773724759427
-0.919,0.147,0.020,-96.619,-48.767,11.292,0.931,1773724759456
-0.906,0.123,0.001,-104.187,-17.395,-18.250,0.915,1773724759486
-0.959,0.105,-0.048,-111.206,5.981,-41.443,0.966,1773724759550
-0.957,0.060,-0.086,-99.487,10.559,-73.059,0.963,1773724759576
-0.901,0.015,-0.122,-112.305,18.250,-75.134,0.910,1773724759605
-0.896,-0.011,-0.134,-110.474,-6.226,-57.922,0.906,1773724759669
-1.013,-0.004,-0.099,-106.201,-12.817,-43.213,1.018,1773724759697
-0.997,-0.015,-0.104,-100.708,-7.324,-22.583,1.002,1773724759726
-0.998,0.043,-0.102,-96.741,-11.658,9.521,1.004,1773724759808
-1.049,0.082,-0.081,-82.581,-29.907,27.527,1.055,1773724759814
-1.028,0.119,-0.070,-60.608,-57.617,27.100,1.038,1773724759845
-0.975,0.128,-0.050,-42.114,-105.652,20.264,0.985,1773724759907
-1.076,0.147,0.017,-28.198,-142.029,16.663,1.087,1773724759935
-1.210,0.156,0.078,-7.385,-170.715,-2.075,1.223,1773724759966
-1.525,0.188,0.129,40.039,-203.247,-27.527,1.542,1773724760055
-1.849,0.078,0.238,113.892,-186.951,19.592,1.866,1773724760119
-1.729,0.012,0.258,185.669,-84.351,149.658,1.748,1773724760146
-1.918,0.134,0.206,177.551,71.655,434.265,1.933,1773724760175
-3.153,0.393,0.168,175.781,193.115,641.968,3.181,1773724760240
-4.000,0.579,0.108,157.532,321.899,759.460,4.043,1773724760266
-3.993,0.638,0.078,146.240,445.068,736.877,4.044,1773724760298
-4.000,0.699,0.008,84.656,529.236,677.124,4.061,1773724760362
-4.000,0.660,-0.038,42.358,617.798,490.723,4.054,1773724760385
-3.633,0.638,-0.219,-5.615,711.975,352.600,3.696,1773724760417
-2.182,0.616,-0.433,-10.071,596.375,90.088,2.309,1773724760481
-1.866,0.434,-0.494,-44.128,385.742,-181.580,1.978,1773724760505
-1.204,0.213,-0.592,-115.417,243.042,-362.244,1.358,1773724760536
-1.387,0.017,-0.418,-143.188,7.141,-376.343,1.448,1773724760599
-1.475,-0.060,-0.311,-210.999,-114.075,-359.314,1.508,1773724760628
-1.279,-0.203,-0.196,-226.562,-186.829,-326.965,1.310,1773724760656
-1.131,-0.259,-0.102,-216.187,-219.482,-178.772,1.165,1773724760720
-1.198,-0.224,-0.005,-168.518,-218.323,-141.357,1.219,1773724760746
-0.862,-0.297,0.023,-141.113,-125.305,-64.697,0.912,1773724760780
-0.926,-0.242,0.054,-45.105,-79.468,-18.860,0.959,1773724760864
-0.906,-0.243,0.043,0.000,-20.752,-3.784,0.939,1773724760866
-0.894,-0.214,-0.023,30.334,71.289,40.833,0.920,1773724760896
-0.943,-0.156,-0.097,62.256,112.305,75.745,0.961,1773724760962
-0.982,-0.088,-0.160,99.182,111.633,80.994,0.999,1773724760985
-0.941,-0.056,-0.205,104.126,104.126,107.117,0.965,1773724761016
-0.990,0.024,-0.230,100.403,64.697,91.797,1.017,1773724761080
-0.803,0.019,-0.249,96.375,8.972,60.913,0.841,1773724761107
-0.857,0.058,-0.199,74.646,-35.828,22.461,0.882,1773724761135
-0.802,0.029,-0.148,61.829,-61.340,-22.034,0.816,1773724761197
-0.869,-0.012,-0.094,58.105,-69.641,-67.566,0.874,1773724761225
-0.817,-0.100,-0.068,45.044,-47.485,-81.116,0.826,1773724761256
-0.996,-0.109,-0.049,40.222,0.977,-70.007,1.004,1773724761318
-1.054,-0.135,-0.051,84.778,9.949,-90.515,1.064,1773724761346
-0.929,-0.208,-0.089,84.412,68.481,-36.194,0.956,1773724761377
-1.030,-0.174,-0.121,136.597,83.984,13.306,1.052,1773724761441
-1.122,-0.080,-0.140,135.315,102.295,62.683,1.133,1773724761466
-1.093,-0.004,-0.156,162.476,92.529,101.318,1.104,1773724761497
-1.041,0.046,-0.147,163.757,72.998,107.910,1.052,1773724761560
-1.025,0.097,-0.131,155.518,48.157,94.360,1.038,1773724761585
-0.985,0.115,-0.106,146.606,35.889,65.002,0.997,1773724761615
-1.011,0.130,-0.081,104.492,56.152,32.654,1.022,1773724761680
-0.761,0.048,-0.086,112.427,47.729,-15.259,0.768,1773724761705
-0.985,0.077,-0.040,107.056,46.936,-39.368,0.988,1773724761737
-0.895,0.007,-0.052,96.497,51.453,-80.872,0.896,1773724761796
-0.903,-0.023,-0.035,141.174,22.278,-81.543,0.904,1773724761827
-1.164,0.023,-0.001,137.451,33.203,-81.665,1.164,1773724761857
-1.067,-0.036,-0.019,123.962,45.044,-63.416,1.067,1773724761920
-1.210,-0.011,-0.011,81.848,72.510,-26.917,1.210,1773724761946
-0.924,-0.061,-0.033,124.268,29.846,-18.921,0.926,1773724761975
-1.159,0.072,0.012,96.313,25.452,10.559,1.161,1773724762040
-1.072,0.064,0.025,123.230,3.540,-10.376,1.074,1773724762064
-1.063,0.065,0.036,98.389,32.959,-0.366,1.066,1773724762099
-1.094,0.095,-0.006,91.675,74.463,-13.062,1.098,1773724762165
-1.287,0.124,-0.026,93.994,86.792,-7.080,1.293,1773724762185
-1.106,0.086,-0.106,81.055,125.549,4.028,1.114,1773724762215
-1.389,0.173,-0.135,91.125,122.253,19.897,1.407,1773724762281
-1.589,0.218,-0.161,82.214,105.713,23.315,1.611,1773724762398
-1.823,0.147,-0.196,-65.002,103.394,170.227,1.839,1773724762400
-2.304,0.282,-0.148,-62.439,47.607,256.897,2.326,1773724762426
-2.724,0.360,-0.070,-42.908,-91.370,301.086,2.748,1773724762490
-3.629,0.428,0.123,-66.895,-306.519,339.478,3.656,1773724762515
-3.868,0.465,0.259,-61.157,-471.558,367.493,3.904,1773724762546
-3.999,0.485,0.569,-37.109,-770.386,290.466,4.068,1773724762609
-4.000,0.453,0.764,-110.291,-871.582,225.403,4.097,1773724762666
-4.000,0.448,0.762,-107.300,-858.887,174.072,4.096,1773724762668
-4.000,0.438,0.661,-73.730,-777.344,81.238,4.078,1773724762729
-3.918,0.389,0.566,-22.461,-677.246,-46.509,3.978,1773724762756
-2.868,0.337,0.500,-28.015,-507.568,-158.081,2.931,1773724762786
-2.126,0.235,0.440,-54.749,-324.524,-246.094,2.184,1773724762851
-1.698,0.158,0.314,-87.463,-167.480,-255.005,1.734,1773724762876
-1.446,0.106,0.229,-93.384,-92.468,-246.216,1.468,1773724762905
-1.254,0.070,0.146,-125.244,-52.307,-201.721,1.265,1773724762971
-1.208,0.045,0.111,-120.056,-54.749,-190.674,1.214,1773724762995
-1.035,-0.003,0.058,-130.249,-53.467,-154.846,1.036,1773724763025
-1.185,0.026,0.056,-152.832,-67.993,-80.383,1.186,1773724763088
-1.053,0.019,0.021,-147.644,-86.792,-44.312,1.053,1773724763119
-1.284,0.109,0.037,-128.845,-114.136,-9.155,1.290,1773724763146
-1.161,0.101,0.041,-100.464,-154.480,-29.907,1.166,1773724763210
-1.214,0.124,0.093,-90.515,-154.846,-24.109,1.224,1773724763239
-1.438,0.183,0.105,-132.141,-108.826,-27.222,1.454,1773724763266
-1.415,0.135,0.071,-88.623,-118.164,-114.624,1.423,1773724763332
-1.408,0.054,0.088,-88.074,-108.643,-151.550,1.412,1773724763357
-1.442,0.021,0.077,-74.402,-96.619,-171.265,1.444,1773724763385
-1.419,-0.049,0.066,-99.365,-29.602,-153.687,1.422,1773724763451
-1.371,-0.075,0.030,-58.105,-23.987,-145.935,1.373,1773724763476
-1.010,-0.159,-0.022,-64.392,-0.977,-54.932,1.022,1773724763505
-1.035,-0.103,-0.036,-52.246,0.854,26.917,1.041,1773724763569
-1.058,-0.001,-0.046,-23.437,-10.132,90.942,1.059,1773724763595
-1.054,0.069,-0.035,-7.874,-32.349,120.544,1.057,1773724763625
-1.109,0.146,-0.022,12.024,-64.148,103.149,1.118,1773724763688
-0.969,0.142,0.002,37.537,-98.816,62.134,0.979,1773724763717
-1.052,0.163,0.048,33.386,-99.304,30.823,1.065,1773724763746
-1.309,0.170,0.088,60.181,-97.168,-36.072,1.323,1773724763808
-1.426,0.103,0.094,90.637,-101.990,-86.060,1.433,1773724763838
-1.566,0.039,0.126,95.825,-90.820,-55.359,1.572,1773724763930
-2.176,0.058,0.214,209.167,-38.696,225.586,2.187,1773724763955
-2.946,0.286,0.178,156.738,67.627,531.677,2.966,1773724764019
-3.867,0.328,0.249,165.405,126.404,709.900,3.889,1773724764046
-4.000,0.612,0.224,67.200,373.779,804.993,4.053,1773724764075
-4.000,0.686,-0.062,-19.409,581.177,674.683,4.059,1773724764138
-4.000,0.600,-0.052,-24.475,711.060,487.793,4.045,1773724764165
-3.999,0.566,-0.251,31.006,806.091,244.385,4.047,1773724764196
-3.134,0.478,-0.373,43.640,659.424,26.123,3.192,1773724764260
-2.581,0.346,-0.409,28.442,491.882,-124.878,2.636,1773724764286
-1.202,0.193,-0.631,2.075,282.043,-210.999,1.371,1773724764315
-0.935,0.061,-0.544,5.615,6.226,-231.323,1.083,1773724764384
-1.300,0.030,-0.264,-65.369,-157.227,-191.956,1.327,1773724764406
-1.114,-0.044,-0.157,-68.481,-237.793,-210.754,1.126,1773724764435
-0.968,-0.100,-0.061,-52.063,-274.719,-157.532,0.975,1773724764497
-1.121,-0.090,0.063,-6.348,-263.367,-125.488,1.126,1773724764527
-0.450,-0.227,0.071,-8.362,-158.386,-62.561,0.509,1773724764555
-0.595,-0.144,0.106,48.706,-78.369,26.367,0.622,1773724764620
-0.396,-0.185,0.104,78.125,28.992,31.189,0.449,1773724764645
-0.791,-0.071,0.058,115.051,129.028,38.757,0.796,1773724764677
-0.732,-0.098,-0.040,171.143,204.163,46.326,0.740,1773724764739
-1.037,-0.007,-0.110,196.411,281.433,72.327,1.043,1773724764769
-1.129,0.054,-0.191,240.295,310.913,94.299,1.146,1773724764803
-1.606,0.184,-0.199,251.221,320.984,127.258,1.629,1773724764887
-1.575,0.263,-0.323,205.627,300.171,23.926,1.629,1773724764947
-1.462,0.246,-0.357,148.987,220.459,-47.791,1.525,1773724764977
-1.419,0.180,-0.356,103.149,120.605,-134.155,1.474,1773724765006
-1.355,0.096,-0.313,90.881,23.071,-179.993,1.394,1773724765102
-1.477,0.047,-0.207,17.761,-13.184,-172.180,1.492,1773724765104
-1.445,0.003,-0.148,8.667,-75.012,-168.030,1.452,1773724765126
-1.347,-0.040,-0.096,-2.441,-103.577,-153.503,1.351,1773724765190
-1.235,-0.070,-0.058,9.766,-120.117,-121.826,1.238,1773724765218
-1.281,-0.073,-0.002,-7.202,-77.515,-51.636,1.283,1773724765277
-0.933,-0.104,-0.038,9.460,-47.668,5.493,0.940,1773724765307
-1.062,-0.012,-0.005,15.930,-14.893,64.087,1.063,1773724765367
-1.144,0.065,-0.011,27.466,17.639,74.402,1.146,1773724765370
-0.972,0.071,-0.061,24.963,44.373,69.885,0.977,1773724765428
-0.997,0.114,-0.097,33.142,41.809,50.110,1.008,1773724765456
-1.103,0.137,-0.104,24.658,25.208,5.493,1.116,1773724765484
-0.873,0.027,-0.144,18.188,5.615,-41.992,0.885,1773724765549
-0.946,0.014,-0.116,23.193,-28.259,-57.068,0.954,1773724765579
-1.008,-0.027,-0.054,18.127,-49.683,-72.266,1.010,1773724765608
-0.901,-0.073,-0.038,-11.047,-41.260,-55.115,0.905,1773724765671
-1.050,-0.065,0.014,21.545,-50.110,-43.579,1.052,1773724765697
-1.074,-0.075,0.032,23.621,-18.555,-16.968,1.077,1773724765726
-1.053,-0.071,0.026,35.889,18.127,29.968,1.056,1773724765787
-1.048,-0.039,0.036,44.006,67.566,104.004,1.050,1773724765819
-1.042,0.047,-0.010,75.134,118.713,173.462,1.043,1773724765848
-1.623,0.201,0.001,90.515,182.495,279.663,1.635,1773724765940
-2.890,0.492,-0.100,134.155,215.271,336.304,2.933,1773724765997
-3.274,0.547,-0.148,101.135,78.186,226.318,3.323,1773724766058
-2.724,0.487,-0.308,-24.231,-98.328,122.192,2.784,1773724766060
-3.516,0.437,-0.013,-108.337,-723.328,29.053,3.543,1773724766119
-4.000,0.428,0.685,-90.881,-1175.476,-91.370,4.081,1773724766145
-4.000,0.341,1.083,-176.453,-1277.222,-167.114,4.158,1773724766175
-4.000,0.370,0.983,-228.516,-1285.339,-78.491,4.135,1773724766205
-4.000,0.380,0.760,-110.840,-1136.047,-100.403,4.089,1773724766267
-4.000,0.372,0.575,26.367,-845.703,-210.449,4.058,1773724766294
-2.859,0.256,0.578,109.985,-522.400,-369.629,2.928,1773724766324
-1.642,0.082,0.440,70.068,-149.536,-430.664,1.702,1773724766389
-1.597,0.040,0.241,38.452,140.381,-396.728,1.616,1773724766416
-1.888,0.052,0.073,8.362,282.715,-348.816,1.891,1773724766445
-1.572,-0.054,-0.040,-82.947,330.688,-342.712,1.573,1773724766511
-1.307,-0.128,-0.140,-103.394,284.302,-260.132,1.321,1773724766536
-1.329,-0.160,-0.220,-134.644,182.434,-140.381,1.357,1773724766565
-0.913,-0.215,-0.309,-213.867,61.462,-17.456,0.987,1773724766628
-1.321,-0.021,-0.153,-182.129,-165.039,212.830,1.330,1773724766655
-1.614,0.152,-0.029,-126.099,-312.134,306.091,1.621,1773724766749
-1.991,0.354,0.146,-13.794,-427.490,162.415,2.028,1773724766776
-1.855,0.346,0.209,29.785,-444.153,-21.179,1.899,1773724766839
-1.767,0.265,0.273,34.424,-403.503,-191.772,1.808,1773724766867
-1.681,0.139,0.305,31.860,-281.128,-322.571,1.714,1773724766897
-1.821,0.013,0.271,41.138,-120.850,-370.972,1.841,1773724766960
-1.828,-0.081,0.216,118.896,5.920,-385.864,1.842,1773724766985
-1.491,-1.249,-0.365,530.396,72.449,-157.593,1.979,1773724767016
-2.229,0.188,-0.354,-248.352,199.097,210.022,2.265,1773724767076
-2.323,0.194,0.078,190.247,52.979,395.447,2.332,1773724767106
-2.428,0.284,0.091,223.938,47.424,463.196,2.446,1773724767137
-2.834,0.403,0.106,162.720,101.746,489.502,2.865,1773724767196
-2.654,0.380,0.127,141.907,203.430,426.208,2.684,1773724767226
-2.920,0.476,0.043,99.182,358.887,410.828,2.958,1773724767255
-3.111,0.417,0.008,146.667,429.626,338.440,3.139,1773724767322
-3.247,0.455,-0.116,103.149,569.336,317.444,3.280,1773724767345
-2.747,0.409,-0.161,307.861,433.655,261.047,2.782,1773724767376
-2.866,0.431,-0.138,173.157,459.290,294.434,2.902,1773724767443
-1.826,0.413,-0.322,154.846,456.299,236.877,1.900,1773724767465
-1.241,0.449,-0.396,203.979,290.100,131.897,1.378,1773724767497
-1.122,0.412,-0.382,140.381,184.998,25.085,1.255,1773724767557
-0.814,0.327,-0.453,49.927,174.438,-93.018,0.988,1773724767587
-0.486,0.181,-0.494,16.846,59.814,-194.885,0.717,1773724767615
-0.900,0.065,-0.332,-36.682,-3.967,-251.526,0.961,1773724767680
-0.847,-0.014,-0.317,-97.961,-33.081,-299.133,0.904,1773724767707
-1.042,-0.113,-0.210,-98.816,-82.092,-323.791,1.069,1773724767735
-1.037,-0.197,-0.176,-115.479,-68.054,-291.016,1.070,1773724767797
-1.098,-0.251,-0.129,-85.327,-81.665,-257.935,1.134,1773724767830
-0.882,-0.320,-0.130,-29.358,-60.669,-209.900,0.948,1773724767856
-0.726,-0.378,-0.126,18.433,-13.855,-97.351,0.828,1773724767919
-1.025,-0.226,-0.111,67.993,30.151,-9.460,1.056,1773724767946
-0.756,-0.211,-0.155,102.783,90.332,72.754,0.800,1773724767976
-1.078,-0.023,-0.171,127.625,134.460,137.695,1.091,1773724768041
-1.218,0.081,-0.193,173.584,136.230,123.901,1.236,1773724768068
-1.103,0.126,-0.238,153.992,156.677,116.333,1.135,1773724768096
-1.325,0.229,-0.257,124.023,148.315,72.449,1.369,1773724768160
-1.145,0.193,-0.300,101.440,114.807,-22.156,1.199,1773724768188
-1.251,0.189,-0.306,35.034,88.989,-75.073,1.301,1773724768216
-1.234,0.091,-0.292,40.283,24.536,-149.353,1.271,1773724768276
-1.318,0.030,-0.226,-0.244,-9.338,-152.893,1.338,1773724768308
-1.315,-0.029,-0.173,-14.221,-29.419,-144.165,1.326,1773724768336
-1.222,-0.065,-0.150,-26.367,-43.396,-97.229,1.233,1773724768400
-1.169,-0.079,-0.108,-5.493,-58.105,-61.462,1.177,1773724768425
-1.133,-0.043,-0.063,-10.925,-44.983,2.502,1.136,1773724768460
-1.143,0.008,-0.041,-2.869,-35.339,56.580,1.143,1773724768517
-1.150,0.060,-0.037,9.888,-34.119,61.035,1.153,1773724768545